Latitude,Longitude,Altitude,Ax,Ay,Az
41,54,2,44,94,20,-0,050120,0,003916,0,102588
41,54,2,44,94,20,0,006189,-0,001184,0,016286
41,54,2,44,94,20,-0,076259,-0,004060,-0,061851
41,54,2,44,94,20,0,396934,-0,024348,0,152294
41,54,2,44,94,20,0,054761,-0,008069,-0,018374
41,54,2,44,94,20,0,002826,0,005725,-0,045001
41,54,2,44,94,00,-0,029870,-0,073820,0,008347
41,54,2,44,94,00,-0,029124,-0,061003,0,003444
41,54,2,44,94,00,0,059025,-0,047522,0,046128
41,54,2,44,92,70,0,218630,-0,008981,0,039713
41,54,2,44,92,70,-0,130245,0,041192,0,046526
41,54,2,44,92,70,0,042030,-0,010319,-0,012864
41,54,2,44,92,70,0,149973,-0,039094,-0,079790
41,54,2,44,92,70,0,070625,-0,000279,0,062529
41,54,2,44,92,70,0,299250,-0,024821,-0,214528
41,54,2,44,92,70,-0,109357,0,060706,0,069217
41,54,2,44,92,70,0,044250,-0,012581,-0,013488
41,54,2,44,92,10,0,031515,-0,014045,-0,003928
41,54,2,44,92,10,-0,012393,-0,045475,-0,056084
41,54,2,44,92,10,-0,169153,-0,168735,0,072594
41,54,2,44,92,10,0,028304,-0,009990,-0,008117
41,54,2,44,92,10,-0,022458,-0,018172,-0,011644
41,54,2,44,92,10,-0,006101,0,080838,-0,024556
41,54,2,44,92,10,0,024465,0,062886,0,011732
41,54,2,44,92,10,-0,083737,0,021660,-0,012170
41,54,2,44,92,10,0,047107,-0,038395,-0,016244
41,54,2,44,92,10,0,034433,0,195275,-0,019103
41,54,2,44,92,10,-0,076536,0,010872,0,029571
41,54,2,44,92,10,-0,047689,0,038409,-0,047689
41,54,2,44,92,10,0,043478,0,067584,0,092681
41,54,2,44,92,10,0,003436,-0,002618,-0,006412
41,54,2,44,92,10,0,060267,0,021923,0,026744
41,54,2,44,92,10,-0,003425,-0,014664,0,019113
41,54,2,44,92,10,-0,002498,0,099921,-0,035854
41,54,2,44,92,10,0,009464,0,009072,0,000162
41,54,2,44,92,10,-0,025919,0,006312,-0,019619
41,54,2,44,92,10,0,122820,-0,214719,0,264654
41,54,2,44,92,10,0,014349,0,009468,0,062827
41,54,2,44,92,10,-0,038919,0,075922,0,426433
41,54,2,44,92,10,-0,201647,0,010104,-0,510194
41,54,2,44,92,10,-0,228596,0,032323,-0,781246
41,54,2,44,92,10,0,077496,0,030047,0,124202
41,54,2,44,88,10,0,082584,-0,019622,0,241780
41,54,2,44,88,10,-0,024890,0,019592,-0,123959
41,54,2,44,88,10,-0,044185,-0,001463,0,026921
41,54,2,44,88,10,-0,098050,0,036769,-0,275692
41,54,2,44,88,50,-0,009159,-0,009043,0,012869
41,54,2,44,88,50,0,030564,-0,012113,0,124087
41,54,2,44,88,50,0,004453,-0,008004,0,036168
41,54,2,44,88,50,-0,001512,-0,021626,0,030095
41,54,2,44,88,10,0,006992,-0,011249,0,035266
41,54,2,44,88,10,0,020657,-0,013968,0,047461
41,54,2,44,88,10,-0,477435,0,221262,-1,488377
41,54,2,44,88,10,0,009747,-0,002702,0,029906
41,54,2,44,88,10,0,189340,-0,069211,0,603846
41,54,2,44,88,10,-0,106022,0,052337,-0,326430
41,54,2,44,88,10,-0,000744,-0,004040,-0,062519
41,54,2,44,88,10,-0,024544,0,006617,-0,079250
41,54,2,44,88,10,-0,122327,0,022295,-0,347362
41,54,2,44,88,10,0,180201,-0,056945,0,531086
41,54,2,44,88,10,0,013072,-0,015926,0,021035
41,54,2,44,88,10,0,001037,-0,000696,0,006569
41,54,2,44,88,10,0,001329,-0,001329,0,008056
41,54,2,44,88,10,-0,016920,0,009071,-0,049975
41,54,2,44,88,10,0,134119,-0,046445,0,435399
41,54,2,44,88,10,0,080756,-0,033365,0,270516
41,54,2,44,88,10,-0,025127,0,008642,-0,078939
41,54,2,44,88,10,-0,006825,0,001397,-0,025141
41,54,2,44,88,10,0,024551,-0,011366,0,082444
41,54,2,44,88,10,-0,077678,0,033595,-0,248539
41,54,2,44,88,10,0,057844,-0,023617,0,182604
41,54,2,44,88,10,-0,048033,0,018775,-0,149546
41,54,2,44,88,10,0,018724,-0,027291,0,069878
41,54,2,44,88,10,0,005764,-0,012467,0,064215
41,54,2,44,88,10,-0,012734,-0,013795,-0,137645
41,54,2,44,88,10,-0,263550,0,091529,-0,823611
41,54,2,44,88,10,-0,030257,0,012343,-0,152999
41,54,2,44,88,10,-0,117063,0,052307,-0,421042
41,54,2,44,88,10,-0,076004,0,020578,-0,269017
41,54,2,44,88,10,0,075272,-0,089452,0,312710
41,54,2,44,88,10,-0,068395,0,100303,-0,031907
41,54,2,44,88,10,-0,141638,0,045537,-0,446388
41,54,2,44,88,10,0,158370,-0,053090,0,424420
41,54,2,44,88,10,-0,004142,0,003275,-0,007970
41,54,2,44,88,10,0,037256,-0,029448,0,149844
41,54,2,44,88,10,0,007128,-0,051611,0,044483
41,54,2,44,88,10,0,039527,-0,020871,0,157467
41,54,2,44,88,10,-0,254853,0,125775,0,491995
41,54,2,44,88,10,-0,029271,0,016955,-0,096507
41,54,2,44,87,30,0,038679,0,024330,-0,072367
41,54,2,44,87,30,-0,009013,0,002906,0,025809
41,54,2,44,87,30,-0,205979,-0,169277,-0,428437
41,54,2,44,87,30,-0,037187,0,100284,0,020727
41,54,2,44,87,30,0,188538,0,092692,0,299604
41,54,2,44,87,30,0,029161,0,126442,-0,007982
41,54,2,44,87,30,-0,046466,0,016391,-0,091842
41,54,2,44,87,30,-0,092675,0,127263,0,015710
41,54,2,44,87,30,-0,065946,-0,017938,-0,082122
41,54,2,44,87,30,0,081482,0,065244,0,098309
41,54,2,44,87,30,-0,079937,-0,019783,-0,005709
41,54,2,44,87,30,0,001279,0,000732,0,006519
41,54,2,44,87,30,0,012477,-0,098880,0,050119
41,54,2,44,87,30,0,028791,0,009855,-0,040086
41,54,2,44,87,30,-0,111454,-0,004977,-0,080873
41,54,2,44,87,30,0,036917,0,231417,-0,288471
41,54,2,44,87,30,0,018758,0,016194,0,003540
41,54,2,44,87,30,0,010910,0,010541,-0,016599
41,54,2,44,87,30,0,093607,-0,070705,-0,046836
41,54,2,44,87,30,-0,092213,-0,236655,0,171589
41,54,2,44,87,30,-0,006504,0,009024,0,001002
41,54,2,44,87,30,-0,042058,-0,000596,-0,002056
41,54,2,44,87,30,-0,258651,0,017599,0,064529
41,54,2,44,87,30,0,086007,0,076540,-0,047511
41,54,2,44,87,30,0,011374,-0,026876,-0,036301
41,54,2,44,87,30,0,041683,-0,052118,-0,063814
41,54,2,44,87,30,0,047519,0,114457,-0,066254
41,54,2,44,87,30,-0,384805,0,130645,0,088981
41,54,2,44,87,30,0,066871,-0,065695,-0,034317
41,54,2,44,87,30,0,220141,0,019862,-0,316418
41,54,2,44,87,30,-0,023225,0,006865,-0,018040
41,54,2,44,87,30,0,136786,-0,048019,0,049534
41,54,2,44,87,30,0,057512,0,110556,0,051090
41,54,2,44,87,30,-0,089775,0,184704,-0,074316
41,54,2,44,87,30,0,015038,-0,183024,0,033803
41,54,2,44,87,30,-0,045013,0,109849,-0,118246
41,54,2,44,87,30,0,084751,-0,109713,0,152163
41,54,2,44,87,30,0,002250,-0,028937,-0,031072
41,54,2,44,80,60,0,068527,0,009878,0,011318
41,54,2,44,80,60,0,035092,0,286441,0,191864
41,54,2,44,80,60,0,006944,0,022841,0,013417
41,54,2,44,80,60,-0,020954,-0,006604,0,011573
41,54,2,44,80,60,-0,103344,-0,076602,-0,113165
41,54,2,44,80,60,-0,017775,-0,008888,-0,040667
41,54,2,44,80,60,0,023945,-0,189864,0,105739
41,54,2,44,80,60,-0,189905,-0,019579,-0,512743
41,54,2,44,80,60,-0,123695,-0,078553,0,275159
41,54,2,44,80,60,-0,046913,-0,042087,0,002707
41,54,2,44,80,60,0,000228,0,056876,-0,045592
41,54,2,44,80,60,-0,074017,0,039609,0,024441
41,54,2,44,80,60,0,526744,0,265231,-0,216206
41,54,2,44,80,60,0,001036,0,000011,0,000950
41,54,2,44,80,60,0,001890,0,001766,0,001742
41,54,2,44,80,60,0,017757,0,015236,-0,075227
41,54,2,44,80,60,-0,133527,0,267602,0,011093
41,54,2,44,80,60,0,000168,0,000292,-0,000210
41,54,2,44,80,60,-0,092873,-0,062572,0,078215
41,54,2,44,80,60,-0,076846,-0,124898,-0,166625
41,54,2,44,80,60,0,054503,0,015572,0,027540
41,54,2,44,80,60,-0,035843,-0,135438,0,003694
41,54,2,44,80,60,-0,016232,-0,020290,0,141906
41,54,2,44,80,60,-0,031898,0,048714,-0,000176
41,54,2,44,80,60,-0,030112,0,159020,-0,018927
41,54,2,44,80,60,0,130284,0,182263,0,096307
41,54,2,44,80,60,-0,003014,0,013842,-0,020835
41,54,2,44,80,60,-0,003576,0,090732,-0,021457
41,54,2,44,80,60,-0,057608,-0,001029,-0,181482
41,54,2,44,80,60,-0,232194,-0,154547,-0,091833
41,54,2,44,80,60,0,100084,-0,286635,0,156458
41,54,2,44,80,60,0,007135,-0,121108,0,039823
41,54,2,44,80,60,0,046632,0,103966,0,011212
41,54,2,44,80,60,-0,019053,0,002314,-0,061365
41,54,2,44,80,60,-0,010876,0,019363,0,003080
41,54,2,44,80,60,-0,019058,0,003675,-0,023550
41,54,2,44,80,60,-0,193942,0,038508,-0,089512
41,54,2,44,80,60,0,019051,-0,006774,0,022382
41,54,2,44,80,60,-0,039297,0,111241,0,110032
41,54,2,44,80,60,0,178894,-0,026994,0,308985
41,54,2,44,80,60,0,010975,0,010243,-0,244963
41,54,2,44,80,60,0,001192,0,031348,-0,079104
41,54,2,44,80,60,0,120277,-0,041191,0,424192
41,54,2,44,80,60,0,011356,0,082332,-0,064243
41,54,2,44,80,60,0,000904,0,000816,-0,003210
41,54,2,44,80,60,0,092833,-0,017160,-0,044125
41,54,2,44,80,60,0,020707,0,000823,0,226270
41,54,2,44,80,60,-0,032799,0,021000,-0,030793
41,54,2,44,80,60,0,033256,-0,028236,0,006723
41,54,2,44,80,60,-0,021041,-0,001111,-0,065281
41,54,2,44,80,60,-0,037395,-0,008205,-0,039612
41,54,2,44,80,60,-0,196891,0,097380,-0,030831
41,54,2,44,80,60,0,091472,-0,040116,0,084010
41,54,2,44,80,60,-0,006993,-0,032461,-0,039047
41,54,2,44,80,60,-0,098381,-0,044365,-0,041994
41,54,2,44,80,60,0,045831,-0,022021,-0,017754
41,54,2,44,80,60,-0,082683,0,057765,0,014649
41,54,2,44,80,60,-0,000604,0,076107,-0,051443
41,54,2,44,80,60,-0,012939,-0,123507,0,067046
41,54,2,44,80,60,0,082219,-0,090659,0,032527
41,54,2,44,80,60,0,001502,-0,003873,0,002980
41,54,2,44,80,60,-0,015309,0,082873,-0,004899
41,54,2,44,80,60,0,026808,0,046092,0,068767
41,54,2,44,80,60,0,013583,-0,034980,-0,041712
41,54,2,44,80,60,-0,080439,0,143371,-0,116357
41,54,2,44,80,60,0,001120,-0,031702,0,006665
41,54,2,44,80,60,0,067205,-0,009202,-0,103875
41,54,2,44,80,60,-0,039217,0,016528,-0,032305
41,54,2,44,80,60,0,381987,-0,178544,-0,293777
41,54,2,44,80,60,-0,029483,-0,005240,-0,064850
41,54,2,44,80,60,-0,011949,-0,013338,-0,041264
41,54,2,44,80,60,-0,158044,0,045757,-0,456586
41,54,2,44,81,80,-0,014784,0,008707,-0,043446
41,54,2,44,81,80,0,006608,-0,005846,0,020715
41,54,2,44,81,80,-0,017009,0,012658,-0,073704
41,54,2,44,81,80,-0,002601,0,001047,-0,008916
41,54,2,44,81,80,0,000774,0,000903,-0,000065
41,54,2,44,81,80,0,000569,-0,000854,0,007115
41,54,2,44,81,80,-0,010233,0,002159,-0,025253
41,54,2,44,81,80,0,002137,-0,000763,0,009923
41,54,2,44,81,80,-0,054459,0,023500,-0,219241
41,54,2,44,81,80,-0,001799,0,000212,-0,005821
41,54,2,44,81,80,-0,000907,0,000570,-0,002979
41,54,2,44,81,80,0,002876,0,000605,0,010141
41,54,2,44,81,80,0,000059,0,000205,-0,000088
41,54,2,44,81,80,-0,000285,0,000500,0,001285
41,54,2,44,81,80,-0,011515,0,007315,-0,043486
41,54,2,44,81,80,0,039530,-0,010007,0,114461
41,54,2,44,81,80,-0,094258,-0,074777,0,264642
41,54,2,44,81,80,0,057141,-0,055350,0,021707
41,54,2,44,81,80,-0,016680,0,046704,-0,091255
41,54,2,44,81,80,0,028539,-0,006393,0,061340
41,54,2,44,81,80,0,049722,0,084825,0,035721
41,54,2,44,81,80,-0,443459,-0,166599,-0,917367
41,54,2,44,81,80,0,171862,-0,038090,-0,022092
41,54,2,44,81,80,-0,406750,0,010477,0,104908
41,54,2,44,81,80,0,041306,-0,081009,0,127121
41,54,2,44,81,80,-0,031071,-0,041470,-0,048486
41,54,2,44,81,80,0,066812,-0,032821,0,233766
41,54,2,44,81,80,0,485767,-0,174311,1,498742
41,54,2,44,81,60,0,222438,-0,059167,0,588824
41,54,2,44,81,60,0,126809,-0,034247,0,310009
41,54,2,44,81,60,0,016036,-0,005131,0,044722
41,54,2,44,81,60,-0,134573,0,025209,-0,403151
41,54,2,44,81,70,0,488295,-0,081200,1,295240
41,54,2,44,81,70,-0,732995,0,109668,-1,982945
41,54,2,44,81,70,-0,525744,0,009836,0,257455
41,54,2,44,81,60,-0,010171,0,004547,-0,033316
41,54,2,44,81,60,0,047271,-0,004677,-0,060921
41,54,2,44,81,60,-0,050559,0,024116,-0,198563
41,54,2,44,81,60,0,002739,-0,005174,0,025868
41,54,2,44,81,60,0,016923,-0,005366,0,058778
41,54,2,44,81,60,-0,237314,0,081520,-0,735040
41,54,2,44,81,60,0,009528,-0,005022,0,021889
41,54,2,44,81,60,0,004564,-0,001914,0,017150
41,54,2,44,81,60,0,001401,-0,000420,0,005604
41,54,2,44,81,60,-0,003292,0,000754,-0,008093
41,54,2,44,81,60,0,011022,-0,005372,0,027137
41,54,2,44,81,60,0,164525,-0,058411,0,475810
41,54,2,44,81,60,0,129927,-0,039061,0,366371
41,54,2,44,81,60,-0,072989,0,024085,-0,210163
41,54,2,44,81,60,-0,058412,0,019376,-0,169821
41,54,2,44,81,60,0,063965,-0,023759,0,123514
41,54,2,44,81,60,0,003031,-0,000989,0,009072
41,54,2,44,81,60,-0,027829,0,006957,-0,065087
41,54,2,44,81,60,0,041728,-0,020640,0,127279
41,54,2,44,81,60,0,026112,-0,014878,0,067254
41,54,2,44,81,60,-0,016379,0,013351,-0,075700
41,54,2,44,81,60,-0,014550,0,006359,-0,045330
41,54,2,44,81,60,-0,011831,0,004513,-0,035675
41,54,2,44,81,60,-0,000755,-0,000058,-0,000058
41,54,2,44,81,60,0,000711,0,002133,0,008958
41,54,2,44,81,60,0,002441,-0,000915,0,007781
41,54,2,44,81,60,0,001623,-0,001894,0,004193
41,54,2,44,81,60,0,012186,-0,005077,0,020164
41,54,2,44,81,60,0,000814,-0,002579,0,004072
41,54,2,44,81,60,-0,001422,0,000711,-0,001828
41,54,2,44,81,60,0,001613,-0,000134,0,004434
41,54,2,44,81,60,-0,002443,0,001985,-0,007178
41,54,2,44,81,60,0,000237,-0,000079,0,000631
41,54,2,44,81,60,0,007014,-0,006313,0,021182
41,54,2,44,81,60,0,002443,0,001069,-0,007329
41,54,2,44,81,60,0,000055,0,000606,-0,006172
41,54,2,44,81,60,-0,001195,0,000398,-0,003602
41,54,2,44,81,60,-0,071794,0,019956,-0,211407
41,54,2,44,81,60,0,261011,-0,095734,0,793621
41,54,2,44,81,60,0,030146,-0,013202,0,091286
41,54,2,44,81,60,-0,015033,0,010579,-0,033963
41,54,2,44,81,60,-0,032360,-0,006564,-0,058920
41,54,2,44,81,60,0,335696,-0,124484,1,033472
41,54,2,44,81,60,-0,102633,0,038788,-0,304645
41,54,2,44,81,60,0,032680,-0,010599,0,096274
41,54,2,44,81,60,0,011750,-0,005238,0,033693
41,54,2,44,81,60,-0,000432,0,000378,-0,004592
41,54,2,44,81,60,0,014927,-0,011622,0,027508
41,54,2,44,81,60,0,009913,-0,003355,0,019064
41,54,2,44,81,60,-0,000829,0,000293,-0,002292
41,54,2,44,81,60,0,000818,-0,000136,0,004502
41,54,2,44,81,60,-0,000153,-0,000153,-0,007016
41,54,2,44,81,60,-0,006727,0,002587,-0,019275
41,54,2,44,81,60,-0,003975,0,001325,-0,016165
41,54,2,44,81,60,0,008652,-0,004098,0,019733
41,54,2,44,81,60,-0,002326,0,001292,-0,002843
41,54,2,44,81,60,0,001181,-0,000154,0,004108
41,54,2,44,81,60,-0,000346,0,000901,0,000069
41,54,2,44,81,60,-0,002573,0,001434,-0,007636
41,54,2,44,81,60,0,001666,-0,002221,0,003748
41,54,2,44,81,60,0,001923,-0,000356,0,005200
41,54,2,44,81,60,-0,001567,0,000261,-0,006662
41,54,2,44,81,60,-0,002248,0,001124,-0,004075
41,54,2,44,81,60,-0,001622,0,001917,0,005014
41,54,2,44,81,60,0,010749,-0,003142,0,026460
41,54,2,44,81,60,0,033116,-0,012443,0,103863
41,54,2,44,81,60,-0,017089,0,004591,-0,008035
41,54,2,44,81,60,-0,001380,-0,000104,-0,005831
41,54,2,44,81,60,-0,003048,0,000610,-0,005792
41,54,2,44,81,60,0,009991,-0,002428,0,029973
41,54,2,44,81,60,0,001399,-0,000518,0,003834
41,54,2,44,81,60,0,014927,-0,006746,0,040045
41,54,2,44,81,60,-0,022561,0,007809,-0,064934
41,54,2,44,81,60,0,003129,-0,001187,0,011438
41,54,2,44,81,60,0,001319,-0,000659,0,003561
41,54,2,44,81,60,-0,010560,0,003600,-0,032001
41,54,2,44,81,60,-0,001935,0,000580,-0,004209
41,54,2,44,81,60,-0,013648,0,003444,-0,038520
41,54,2,44,81,60,0,049940,-0,018387,0,154217
41,54,2,44,81,60,0,000354,0,001938,0,011197
41,54,2,44,81,60,-0,073167,0,084447,0,245568
41,54,2,44,81,60,-0,252254,0,086745,-0,512791
41,54,2,44,81,60,-0,046587,0,048279,-0,268653
41,54,2,44,81,60,-0,010158,0,008301,-0,020587
41,54,2,44,81,60,0,001396,0,000297,0,002583
41,54,2,44,81,60,-0,042076,0,007076,-0,074759
41,54,2,44,81,60,-0,071348,-0,030217,-0,146291
41,54,2,44,81,60,0,019806,-0,049643,0,171736
41,54,2,44,81,70,-0,017682,0,000616,-0,046488
41,54,2,44,81,70,-0,005645,0,003500,-0,020434
41,54,2,44,81,80,-0,004170,0,039909,0,019359
41,54,2,44,81,80,-0,006591,0,001099,-0,024278
41,54,2,44,81,80,0,000207,-0,002413,0,006136
41,54,2,44,81,60,0,001607,-0,001492,0,004877
41,54,2,44,81,60,-0,000252,0,000126,-0,000126
41,54,2,44,81,60,-0,000851,0,001418,-0,004112
41,54,2,44,81,60,-0,000580,0,000451,-0,000000
41,54,2,44,81,60,-0,007220,-0,000924,-0,043053
41,54,2,44,81,60,0,100420,-0,015824,0,114222
41,54,2,44,81,60,-0,031403,-0,002659,-0,031403
41,54,2,44,81,80,-0,016360,0,049984,-0,059920
41,54,2,44,81,80,0,013162,0,023298,-0,048865
41,54,2,44,81,80,0,019884,0,033529,-0,053624
41,54,2,44,81,80,-0,071542,-0,180146,0,092048
41,54,2,44,81,80,-0,052698,-0,004294,-0,096661
41,54,2,44,81,80,-0,002282,-0,005729,-0,009475
41,54,2,44,82,40,-0,015250,-0,035583,0,058062
41,54,2,44,82,40,-0,000299,-0,011357,0,063659
41,54,2,44,82,40,0,018598,0,011832,-0,018731
41,54,2,44,82,40,0,075482,0,029257,-0,003607
41,54,2,44,82,70,0,008235,0,105485,0,030587
41,54,2,44,82,70,-0,022910,-0,050460,0,053534
41,54,2,44,82,70,0,448441,-0,065487,0,272055
41,54,2,44,82,70,0,210173,0,268912,0,194290
41,54,2,44,82,50,-0,086725,0,070777,-0,015492
41,54,2,44,82,50,-0,001184,-0,001245,0,000922
41,54,2,44,82,50,-0,135759,-0,133814,-0,231938
41,54,2,44,82,50,-0,032477,0,036036,-0,098616
41,54,2,44,82,50,-0,069044,0,063886,-0,216452
41,54,2,44,82,50,0,129546,0,034738,-0,012107
41,54,2,44,82,70,-0,619299,0,036559,0,310824
41,54,2,44,82,70,-0,215042,0,261475,0,418441
41,54,2,44,82,70,0,226606,-0,068493,-0,203968
41,54,2,44,82,70,0,028786,-0,092589,0,093330
41,54,2,44,82,70,0,052635,0,004306,0,035286
41,54,2,44,82,70,0,068690,-0,014209,-0,004161
41,54,2,44,82,70,-0,113555,-0,049626,0,080277
41,54,2,44,82,70,-0,009954,0,004083,-0,013599
41,54,2,44,82,80,0,225265,0,202085,0,044459
41,54,2,44,82,80,-0,022128,0,009312,0,048129
41,54,2,44,82,80,0,070467,0,054248,-0,082631
41,54,2,44,82,80,-0,015376,-0,022404,-0,057448
41,54,2,44,82,80,-0,076030,0,085966,-0,054517
41,54,2,44,82,80,-0,002415,-0,011809,0,044686
41,54,2,44,82,70,-0,001577,0,038452,0,095737
41,54,2,44,82,70,0,017631,-0,045968,0,000126
41,54,2,44,82,70,-0,016690,0,022253,0,101792
41,54,2,44,82,70,-0,060553,0,026735,-0,055540
41,54,2,44,82,70,-0,122880,0,029600,-0,399424
41,54,2,44,82,70,-0,066809,0,078608,0,264434
41,54,2,44,82,70,-0,023383,-0,024240,-0,037952
41,54,2,44,82,70,0,176534,0,133266,-0,011033
41,54,2,44,82,70,-0,053663,-0,027495,-0,071269
41,54,2,44,82,70,-0,003614,-0,012398,0,004167
41,54,2,44,82,70,-0,076777,0,025975,0,139203
41,54,2,44,82,70,-0,078300,-0,230550,-0,105522
41,54,2,44,82,70,-0,013389,-0,021563,-0,089917
41,54,2,44,82,70,-0,096610,-0,000278,-0,500867
41,54,2,44,83,60,0,013242,-0,050200,0,024679
41,54,2,44,83,60,0,133570,-0,142423,0,568778
41,54,2,44,83,60,0,019817,-0,003877,0,001903
41,54,2,44,83,60,-0,137167,0,024239,-0,245223
41,54,2,44,83,60,-0,331198,-0,169179,-0,507397
41,54,2,44,83,60,-0,000979,0,006263,-0,012476
41,54,2,44,83,60,-0,018468,0,002532,-0,076220
41,54,2,44,83,60,-0,123879,0,116144,-0,230514
41,54,2,44,83,60,-0,011581,0,018027,-0,110239
41,54,2,44,83,30,-0,150118,-0,016827,-0,341861
41,54,2,44,83,30,0,073779,-0,098474,0,320574
41,54,2,44,83,30,0,004916,-0,040987,-0,057393
41,54,2,44,83,30,-0,106854,0,020701,-0,160777
41,54,2,44,83,30,0,040255,-0,107523,-0,004025
41,54,2,44,83,30,0,002402,0,049768,0,239099
41,54,2,44,83,30,0,010326,0,031490,-0,079028
41,54,2,44,83,30,0,010169,0,055930,-0,184479
41,54,2,44,83,30,0,103229,0,088206,0,082840
41,54,2,44,83,30,0,051607,0,129523,-0,071339
41,54,2,44,83,30,0,000181,-0,003879,-0,044262
41,54,2,44,83,10,-0,022297,-0,019710,-0,060648
41,54,2,44,83,10,0,008613,-0,006035,-0,026133
41,54,2,44,83,10,0,035568,-0,029341,0,078542
41,54,2,44,83,10,0,000358,0,005301,-0,012609
41,54,2,44,83,10,0,004981,0,017940,-0,023610
41,54,2,44,83,10,0,008114,-0,004217,0,029837
41,54,2,44,83,10,-0,059067,-0,067352,-0,136717
41,54,2,44,83,10,0,061428,-0,021535,0,036771
41,54,2,44,82,90,0,004216,-0,012426,0,017242
41,54,2,44,82,90,-0,054480,0,074966,-0,216106
41,54,2,44,82,90,-0,124410,0,068258,-0,058223
41,54,2,44,82,90,-0,120431,-0,005581,0,073287
41,54,2,44,82,90,-0,009963,-0,017815,-0,104439
41,54,2,44,82,90,0,029078,-0,023406,0,003195
41,54,2,44,82,90,0,007057,0,193025,0,128406
41,54,2,44,82,90,-0,002129,0,007544,-0,005871
41,54,2,44,82,90,-0,104161,-0,126922,-0,054652
41,54,2,44,82,90,-0,050326,0,027983,-0,046921
41,54,2,44,82,90,0,090273,-0,033982,0,285614
41,54,2,44,83,10,-0,018228,0,000881,-0,010851
41,54,2,44,83,10,-0,014410,0,027463,-0,064296
41,54,2,44,83,10,0,048645,-0,128745,0,112896
41,54,2,44,83,10,0,057594,0,041118,-0,142647
41,54,2,44,83,10,0,090161,0,149508,0,068097
41,54,2,44,83,10,-0,018261,-0,024312,0,006986
41,54,2,44,83,10,0,006905,0,066202,0,214067
41,54,2,44,83,10,-0,001165,0,012126,-0,005507
41,54,2,44,83,10,-0,075856,-0,003739,-0,298215
41,54,2,44,83,10,-0,052532,-0,020252,0,083747
41,54,2,44,83,10,0,045397,0,014025,-0,108879
41,54,2,44,83,10,-0,174322,0,012358,-0,324760
41,54,2,44,83,10,0,000385,-0,008135,0,002026
41,54,2,44,83,10,0,012453,-0,088844,0,078669
41,54,2,44,83,80,-0,004565,0,001914,0,125009
41,54,2,44,83,80,0,027951,0,003502,-0,002445
41,54,2,44,83,80,-0,059723,0,012589,0,072604
41,54,2,44,83,80,-0,013722,-0,004551,-0,021533
41,54,2,44,83,80,-0,018579,-0,069777,0,022975
41,54,2,44,84,20,-0,114526,-0,003276,-0,033136
41,54,2,44,84,20,-0,041853,-0,013511,0,042940
41,54,2,44,84,20,-0,021362,0,044185,0,048653
41,54,2,44,84,20,-0,006845,-0,003466,-0,013503
41,54,2,44,84,20,-0,117785,-0,045986,-0,171337
41,54,2,44,84,50,-0,021921,-0,027260,0,098268
41,54,2,44,84,50,0,015248,0,022509,-0,056030
41,54,2,44,84,50,0,051676,0,092681,0,009451
41,54,2,44,84,50,0,046269,-0,056534,-0,037099
41,54,2,44,84,50,0,008551,-0,026378,-0,134209
41,54,2,44,84,50,-0,042718,-0,047029,0,038652
41,54,2,44,84,50,0,044917,0,013692,0,087962
41,54,2,44,84,50,0,017667,0,018885,0,053456
41,54,2,44,84,50,-0,046787,-0,011182,-0,201274
41,54,2,44,84,50,0,189009,-0,093676,0,024317
41,54,2,44,84,50,0,121022,-0,051072,0,107705
41,54,2,44,84,50,-0,026346,-0,032436,-0,038898
41,54,2,44,84,50,-0,002385,-0,020912,0,068700
41,54,2,44,84,50,-0,064618,0,041381,-0,008488
41,54,2,44,84,50,0,069283,-0,013156,-0,655666
41,54,2,44,84,50,-0,145081,0,024074,-0,444245
41,54,2,44,84,50,0,008413,0,001366,-0,003038
41,54,2,44,84,50,0,022679,-0,013163,-0,026458
41,54,2,44,84,50,-0,020060,0,014643,-0,030749
41,54,2,44,84,50,0,025620,0,022241,-0,062642
41,54,2,44,84,50,-0,060320,0,069380,-0,007695
41,54,2,44,84,50,0,053900,-0,090739,-0,228584
41,54,2,44,84,50,0,057770,-0,071009,-0,013690
41,54,2,44,84,50,-0,250737,-0,071639,-0,052273
41,54,2,44,84,50,0,008380,0,002834,-0,002257
41,54,2,44,84,50,-0,059164,-0,084346,0,018413
41,54,2,44,84,50,0,248085,0,145549,-0,222489
41,54,2,44,84,50,0,081863,0,280285,0,019068
41,54,2,44,84,50,0,003161,-0,005777,0,013355
41,54,2,44,84,50,0,000761,0,019029,0,022727
41,54,2,44,84,50,-0,007123,-0,039242,-0,033564
41,54,2,44,84,50,-0,137053,-0,075374,-0,023993
41,54,2,44,84,50,-0,000484,-0,002658,0,008335
41,54,2,44,84,50,0,002302,-0,026656,-0,105049
41,54,2,44,84,50,0,030419,0,008015,-0,064116
41,54,2,44,87,80,-0,007687,0,017104,-0,011011
41,54,2,44,87,80,0,066477,0,067682,0,092293
41,54,2,44,87,80,0,067205,-0,031858,0,064171
41,54,2,44,87,80,0,004307,0,011113,-0,014042
41,54,2,44,87,80,0,010023,0,057706,0,245403
41,54,2,44,87,80,-0,034643,-0,004643,-0,049242
41,54,2,44,87,80,-0,207152,-0,125303,-0,296525
41,54,2,44,87,80,0,027827,-0,045699,-0,135419
41,54,2,44,87,80,0,041593,0,120974,0,071139
41,54,2,44,88,10,-0,024497,0,003991,0,064959
41,54,2,44,88,10,-0,010324,0,010053,-0,001970
41,54,2,44,88,10,-0,001037,-0,078581,-0,001426
41,54,2,44,88,10,0,032233,0,036226,0,019397
41,54,2,44,88,10,-0,035108,0,063386,0,049904
41,54,2,44,88,60,-0,049631,-0,013220,0,009644
41,54,2,44,88,60,0,002547,0,004873,0,002714
41,54,2,44,88,60,-0,000008,-0,002285,0,004168
41,54,2,44,88,60,0,032704,0,028672,-0,066573
41,54,2,44,88,60,-0,016875,0,041307,-0,003669
41,54,2,44,88,60,-0,169876,-0,130645,-0,118574
41,54,2,44,88,60,0,077087,0,092270,0,071539
41,54,2,44,89,20,-0,011972,0,032514,-0,002142
41,54,2,44,89,20,-0,040238,-0,004396,-0,067627
41,54,2,44,89,20,0,020903,0,009325,-0,039396
41,54,2,44,89,40,0,008518,-0,033711,0,129685
41,54,2,44,89,40,0,097724,0,100537,0,561023
41,54,2,44,89,40,0,109290,-0,052216,0,365920
41,54,2,44,89,40,0,020054,0,006072,0,025940
41,54,2,44,89,40,-0,447508,0,057500,0,184486
41,54,2,44,89,40,0,447479,-0,190452,1,359459
41,54,2,44,89,40,0,055143,-0,018906,0,029672
41,54,2,44,89,40,-0,002525,-0,017930,-0,020235
41,54,2,44,89,50,-0,028613,0,010247,0,091826
41,54,2,44,89,50,0,006298,-0,083017,0,061404
41,54,2,44,89,50,0,043506,-0,156101,-0,000137
41,54,2,44,89,50,-0,116103,0,017036,-0,082847
41,54,2,44,90,20,-0,193310,0,023351,-0,067540
41,54,2,44,90,20,-0,043940,-0,004436,0,017994
41,54,2,44,90,20,0,016692,0,020045,-0,038935
41,54,2,44,90,20,-0,003963,-0,045716,0,124977
41,54,2,44,90,10,0,021316,0,092145,0,019158
41,54,2,44,90,10,0,039976,-0,038966,-0,118774
41,54,2,44,90,50,-0,063266,-0,078748,-0,079790
41,54,2,44,90,50,0,045015,0,090332,-0,031873
41,54,2,44,90,50,0,115074,0,125674,-0,018133
41,54,2,44,90,50,-0,000335,-0,019986,-0,018644
41,54,2,44,91,80,0,103138,0,048380,0,045973
41,54,2,44,91,80,0,048235,-0,020271,0,035448
41,54,2,44,91,80,0,000850,0,006457,0,017163
41,54,2,44,92,10,0,044447,0,060379,0,000409
41,54,2,44,92,10,0,000574,-0,000159,0,000744
41,54,2,44,92,10,0,083974,-0,137402,-0,000889
41,54,2,44,92,10,-0,070488,-0,018819,0,083199
41,54,2,44,92,80,-0,008493,-0,011083,0,040292
41,54,2,44,92,80,0,021865,0,062034,-0,088055
41,54,2,44,92,80,-0,000925,0,011257,0,010968
41,54,2,44,93,00,0,134097,0,072379,0,110111
41,54,2,44,93,00,-0,012170,-0,031971,0,132940
41,54,2,44,93,00,-0,150755,-0,026604,-0,032315
41,54,2,44,93,00,0,222503,0,122938,0,106186
41,54,2,44,92,80,0,082509,0,082624,0,017194
41,54,2,44,92,80,-0,008282,0,040225,-0,006359
41,54,2,44,93,30,-0,006238,-0,013047,0,018738
41,54,2,44,93,30,-0,080409,0,009435,-0,048724
41,54,2,44,93,30,0,007074,0,011072,-0,048389
41,54,2,44,93,30,0,080482,-0,058331,-0,013168
41,54,2,44,93,50,0,005636,0,043281,-0,034490
41,54,2,44,93,50,-0,147434,0,267261,0,255585
41,54,2,44,93,50,0,039741,0,053325,0,004968
41,54,2,44,93,50,0,029959,0,150091,0,150091
41,54,2,44,93,50,0,002451,0,004867,-0,008967
41,54,2,44,93,50,-0,015645,0,039739,-0,057222
41,54,2,44,93,50,0,029511,0,046985,-0,014125
41,54,2,44,93,50,-0,001547,0,012841,0,001576
41,54,2,44,94,00,-0,016652,-0,025679,-0,001956
41,54,2,44,94,00,-0,059698,-0,057917,-0,012041
41,54,2,44,94,00,-0,053455,-0,031551,-0,083833
41,54,2,44,94,00,-0,003311,0,002660,0,023116
41,54,2,44,94,00,-0,075519,-0,084613,0,045357
41,54,2,44,94,00,0,121870,-0,026271,0,086210
41,54,2,44,94,00,0,001041,0,001254,-0,001057
41,54,2,44,94,00,0,105432,-0,052766,0,385199
41,54,2,44,94,00,-0,549236,0,019203,0,356917
41,54,2,44,94,00,0,003351,0,016009,0,003856
41,54,2,44,94,00,-0,050293,-0,009370,-0,066828
41,54,2,44,94,00,-0,007271,-0,056572,0,003276
41,54,2,44,94,20,0,040232,0,113604,0,078836
41,54,2,44,94,20,0,094582,-0,029087,0,146033
41,54,2,44,94,20,0,064188,-0,040770,-0,401493
41,54,2,44,94,20,0,066966,-0,024908,-0,088301
41,54,2,44,94,20,-0,069442,0,084570,-0,353935
41,54,2,44,94,20,-0,021198,-0,028865,-0,015673
41,54,2,44,94,20,-0,093262,0,040555,-0,295189
41,54,2,44,94,20,-0,103505,-0,007232,-0,118195
41,54,2,44,94,20,-0,042063,-0,054040,-0,083688
41,54,2,44,94,20,-0,023384,-0,049013,-0,061234
41,54,2,44,94,20,-0,007214,0,049369,-0,129766
41,54,2,44,94,20,0,002029,0,000175,0,006288
41,54,2,44,94,20,0,023445,0,009005,0,004887
41,54,2,44,94,20,0,000179,0,001612,-0,005025
41,54,2,44,94,20,-0,023439,-0,008686,-0,076521
41,54,2,44,94,20,-0,005671,0,014035,0,067341
41,54,2,44,94,10,-0,030631,0,020457,0,013638
41,54,2,44,94,10,0,003918,-0,000750,0,004576
41,54,2,44,94,10,0,014648,0,001927,0,035698
41,54,2,44,94,10,-0,008805,0,019427,0,072675
41,54,2,44,94,80,-0,038515,-0,024523,0,004363
41,54,2,44,94,80,-0,140699,-0,027567,0,044138
41,54,2,44,94,80,-0,028766,0,016827,-0,079531
41,54,2,44,94,80,-0,092338,0,041201,-0,269258
41,54,2,44,94,50,0,009740,0,001581,0,012594
41,54,2,44,94,50,-0,061610,0,029806,-0,151029
41,54,2,44,94,50,-0,007731,0,004370,-0,056359
41,54,2,44,94,50,0,009614,0,002439,0,014254
41,54,2,44,100,30,0,063604,-0,000795,0,106082
41,54,2,44,100,30,0,015166,-0,003972,0,050555
41,54,2,44,100,30,-0,009906,-0,004803,-0,056883
41,54,2,44,99,60,0,001650,-0,000343,0,004702
41,54,2,44,99,60,-0,079050,0,064488,-0,218280
41,54,2,44,107,10,0,045027,-0,021773,-0,000889
41,54,2,44,107,10,-0,022688,-0,003045,-0,046747
41,54,2,44,107,10,-0,003078,0,002742,-0,002406
41,54,2,44,107,10,-0,000680,-0,001133,0,000340
41,54,2,44,99,60,-0,001647,-0,001946,0,001497
41,54,2,44,99,60,0,000036,0,000389,0,000526
41,54,2,44,99,60,0,002646,-0,002146,0,008511
41,54,2,44,99,60,0,129134,-0,018252,0,345201
41,54,2,44,102,20,-0,004129,-0,005993,0,003508
41,54,2,44,102,20,-0,092425,-0,001620,0,002302
41,54,2,44,102,20,0,000749,0,002404,-0,007566
41,54,2,44,107,10,-0,020382,-0,012702,0,016542
41,54,2,44,107,10,-0,015687,0,002392,0,011381
41,54,2,44,107,10,0,045181,0,071057,0,153066
41,54,2,44,107,10,0,000751,0,108370,0,030773
41,54,2,44,107,10,0,010008,-0,100075,-0,026838
41,54,2,44,107,10,-0,088956,-0,002987,0,115447
41,54,2,44,107,10,0,038142,-0,019210,-0,113174
41,54,2,44,94,80,-0,052949,0,033282,-0,106351
41,54,2,44,94,80,0,061722,-0,045903,-0,095055
41,54,2,44,94,80,-0,013504,0,016699,-0,181656
41,54,2,44,94,80,0,640300,-0,030038,0,138909
41,54,2,44,94,80,-0,013518,-0,005655,-0,005888
41,54,2,44,94,80,-0,022824,-0,017340,-0,001927
41,54,2,44,94,80,0,083209,0,030685,0,054163
41,54,2,44,94,80,0,048522,0,114864,0,003130
41,54,2,44,95,70,0,127662,-0,077960,0,103663
41,54,2,44,95,70,0,071264,0,005075,0,054827
41,54,2,44,95,70,-0,028356,-0,033290,-0,022657
41,54,2,44,95,70,-0,090115,0,121727,-0,077384
41,54,2,44,95,70,-0,120203,0,051020,0,096938
41,54,2,44,95,70,0,014579,0,017060,-0,006475
41,54,2,44,95,70,0,098845,-0,071635,0,068858
41,54,2,44,95,70,0,177924,0,144669,-0,094045
41,54,2,44,110,00,0,416933,0,200698,-0,297768
41,54,2,44,110,00,0,094921,0,055953,0,008708
41,54,2,44,110,00,-0,004446,-0,002521,-0,005549
41,54,2,44,110,00,0,022602,-0,214797,-0,183093
41,54,2,44,108,40,0,081089,-0,055823,-0,005527
41,54,2,44,108,40,-0,055415,-0,111563,0,033571
41,54,2,44,108,60,0,326013,-0,026476,-0,022788
41,54,2,44,108,60,-0,043684,-0,020202,0,088934
41,54,2,44,108,60,-0,009075,0,040049,0,018940
41,54,2,44,108,60,0,058858,0,043345,-0,012167
41,54,2,44,107,30,0,011080,0,000808,0,000486
41,54,2,44,107,30,-0,170951,0,087890,-0,156592
41,54,2,44,107,30,0,053665,-0,051289,0,116414
41,54,2,44,106,50,-0,036400,-0,026177,0,065498
41,54,2,44,106,50,-0,020436,-0,006939,0,031196
41,54,2,44,106,50,-0,120429,-0,018081,0,018309
41,54,2,44,107,30,0,043538,0,070939,-0,022378
41,54,2,44,107,30,-0,046021,-0,281513,0,215315
41,54,2,44,107,30,-0,036988,0,040208,-0,095560
41,54,2,44,107,30,0,008776,0,014262,0,103013
41,54,2,44,107,10,-0,010865,0,004461,-0,005960
41,54,2,44,107,10,0,065415,0,092508,-0,019091
41,54,2,44,107,10,-0,007477,0,002957,-0,009125
41,54,2,44,107,10,0,022402,0,002640,0,009441
41,54,2,44,107,10,0,068154,0,107100,0,045622
41,54,2,44,107,10,-0,062742,-0,063300,0,014779
41,54,2,44,107,70,0,001011,-0,006179,-0,001030
41,54,2,44,107,70,0,069966,0,116109,0,014169
41,54,2,44,107,70,-0,019678,-0,125513,0,078461
41,54,2,44,111,30,0,039118,0,178164,0,063425
41,54,2,44,111,30,0,006095,0,079999,0,180264
41,54,2,44,111,30,-0,045357,-0,027088,-0,072848
41,54,2,44,111,30,-0,050311,0,101110,0,080035
41,54,2,44,98,48,-0,066909,0,196600,0,050550
41,54,2,44,98,50,0,005059,-0,000842,-0,003549
41,54,2,44,98,50,-0,019091,-0,020096,0,001206
41,54,2,44,98,51,0,109042,-0,086949,-0,144962
41,54,2,44,107,10,0,075332,0,050174,-0,057035
41,54,2,44,107,10,-0,002552,0,003772,-0,010606
41,54,2,44,107,10,0,074703,-0,015850,0,352078
41,54,2,44,107,20,-0,126193,0,154350,-0,411361
41,54,2,44,107,20,-0,094495,-0,012690,-0,008005
41,54,2,44,107,20,0,097653,-0,074668,-0,016151
41,54,2,44,107,20,0,001982,0,001681,0,002603
41,54,2,44,107,10,0,022653,0,002774,0,003806
41,54,2,44,107,10,-0,027861,0,066146,-0,032289
41,54,2,44,95,80,-0,016015,-0,002445,0,007434
41,54,2,44,95,80,-0,010409,-0,000644,0,003425
41,54,2,44,95,80,-0,076892,0,124726,-0,118467
41,54,2,44,95,80,-0,055974,-0,113241,-0,002386
41,54,2,44,100,20,0,053446,-0,052721,0,004982
41,54,2,44,100,20,-0,005288,0,005120,0,003602
41,54,2,44,100,20,0,082256,0,023734,0,007540
41,54,2,44,100,20,0,001045,-0,002439,-0,044839
41,54,2,44,100,20,0,080784,0,033749,-0,112396
41,54,2,44,100,20,0,028673,0,036941,0,031664
41,54,2,44,100,20,0,014232,-0,051752,-0,010494
41,54,2,44,100,20,0,031207,0,005877,0,084803
41,54,2,44,100,20,-0,038899,0,018894,-0,044873
41,54,2,44,100,20,0,011952,-0,003520,-0,005802
41,54,2,44,100,20,-0,023536,0,003072,0,015992
41,54,2,44,100,20,0,003401,-0,000586,-0,000984
41,54,2,44,100,20,-0,027044,-0,057725,-0,037482
41,54,2,44,100,20,0,042210,-0,026778,0,003934
41,54,2,44,100,20,0,082459,-0,113443,0,449524
41,54,2,44,100,20,0,044062,-0,122144,-0,072433
41,54,2,44,100,20,0,061458,0,128038,-0,028097
41,54,2,44,100,20,0,040263,0,003112,-0,027444
41,54,2,44,100,20,0,008745,0,013437,-0,002133
41,54,2,44,100,20,-0,035081,-0,012422,0,072692
41,54,2,44,100,20,0,015676,-0,007870,0,029912
41,54,2,44,100,20,0,022389,-0,068365,0,131876
41,54,2,44,100,20,-0,181237,-0,012508,-0,015092
41,54,2,44,100,20,-0,115312,0,009333,0,068156
41,54,2,44,100,20,0,108052,0,018354,0,072155
41,54,2,44,100,20,-0,018944,0,025469,-0,040904
41,54,2,44,100,20,-0,038066,0,032098,0,065413
41,54,2,44,100,20,-0,001814,-0,001042,-0,000737
41,54,2,43,100,20,0,121042,-0,121553,0,068765
41,54,2,43,100,20,-0,001178,0,000958,0,000448
41,54,2,43,100,20,0,058043,0,080351,-0,010948
41,54,2,43,100,20,-0,057576,-0,081855,0,038500
41,54,2,43,100,20,-0,091236,-0,023104,-0,146520
41,54,2,43,100,20,-0,001689,-0,000505,-0,000035
41,54,2,43,100,20,-0,021011,-0,156666,0,140223
41,54,2,43,100,20,-0,000000,-0,023943,-0,074576
41,54,2,43,100,20,-0,009821,0,012062,-0,003621
41,54,2,43,100,20,0,129653,-0,006935,-0,088948
41,54,2,43,104,20,-0,030890,0,018405,-0,106821
41,54,2,43,104,20,-0,000065,-0,005867,0,002815
41,54,2,43,104,20,0,034223,-0,055190,0,002169
41,54,2,43,104,20,0,011957,-0,003324,0,064448
41,54,2,43,105,20,-0,349797,0,135094,-1,205140
41,54,2,43,105,20,0,095031,-0,047662,-0,196057
41,54,2,43,105,20,-0,032675,-0,025804,0,058326
41,54,2,43,105,20,-0,013688,-0,002586,-0,004792
41,54,2,43,106,20,-0,008550,-0,017561,0,005546
41,54,2,43,106,20,-0,008212,-0,081821,0,007604
41,54,2,43,106,20,-0,058699,0,009970,0,061788
41,54,2,43,106,20,0,064889,0,032563,0,044448
41,54,2,43,106,20,0,119269,0,112591,0,208353
41,54,2,43,106,20,-0,739082,0,396814,-2,163436
41,54,2,43,106,20,0,065412,0,048242,0,022077
41,54,2,43,106,20,-0,020400,-0,056796,-0,134341
41,54,2,43,106,20,0,009267,0,071247,0,083096
41,54,2,43,106,20,-0,024646,-0,030009,0,077258
41,54,2,43,106,20,0,041045,0,027160,-0,021209
41,54,2,43,106,20,0,212558,-0,073568,-0,077386
41,54,2,43,106,20,0,033470,-0,008423,-0,019727
41,54,2,43,106,20,0,034658,0,004217,-0,048495
41,54,2,43,106,20,-0,056260,0,136556,0,032643
41,54,2,43,106,20,0,011117,0,001415,0,006092
41,54,2,43,106,20,-0,046418,0,029656,0,038830
41,54,2,43,106,20,-0,018581,-0,023074,-0,003158
41,54,2,43,106,20,-0,014199,-0,024887,0,010840
41,54,2,43,106,20,-0,011828,0,001971,-0,112971
41,54,2,43,106,20,-0,121355,-0,058425,-0,308456
41,54,2,43,106,20,-0,011792,-0,027468,0,015121
41,54,2,43,106,20,-0,034331,0,054519,0,071742
41,54,2,43,106,20,-0,012951,-0,023286,0,046702
41,54,2,43,106,20,-0,081332,-0,011749,-0,159018
41,54,2,43,106,20,-0,040773,0,007525,-0,034752
41,54,2,43,106,20,-0,147521,0,096221,-0,310591
41,54,2,43,106,20,0,089353,-0,051352,-0,060743
41,54,2,43,106,20,-0,127208,-0,035355,0,173910
41,54,2,43,106,20,-0,056299,0,033798,-0,000380
41,54,2,43,106,20,0,006792,0,002904,0,009022
41,54,2,43,106,20,-0,041070,-0,003835,-0,038472
41,54,2,43,106,20,0,019282,-0,031202,0,063455
41,54,2,43,106,20,0,004428,0,015475,0,003652
41,54,2,43,106,20,0,017992,-0,015421,0,003320
41,54,2,43,106,20,0,034077,0,024216,0,092515
41,54,2,44,106,20,0,086142,-0,065639,0,000295
41,54,2,44,106,20,-0,006633,0,022109,0,039692
41,54,2,44,106,20,0,084883,0,033101,-0,014748
41,54,2,44,106,20,-0,010163,0,037682,-0,017564
41,54,2,44,106,20,-0,007994,-0,061073,0,031123
41,54,2,44,106,20,0,004630,-0,003291,0,001360
41,54,2,44,106,20,-0,029577,0,038510,-0,020494
41,54,2,44,106,20,-0,015386,0,028380,-0,018335
41,54,2,44,106,20,0,019383,0,098289,-0,116298
41,54,2,44,106,20,0,049704,-0,005302,-0,010471
41,54,2,44,106,20,-0,082350,0,004259,0,018458
41,54,2,44,106,20,-0,000528,0,012015,0,000470
41,54,2,44,106,20,0,004808,-0,011599,0,013513
41,54,2,44,106,20,0,010180,-0,024712,0,034892
41,54,2,44,106,20,-0,064766,-0,031719,-0,044702
41,54,2,44,106,20,0,036417,-0,004300,-0,040541
41,54,2,44,106,20,-0,017835,-0,006007,-0,025412
41,54,2,44,106,20,0,066045,-0,062865,-0,089837
41,54,2,44,106,20,0,008838,0,013782,0,100817
41,54,2,44,106,20,0,055909,0,057939,-0,118180
41,54,2,44,106,20,0,040072,0,133572,-0,060043
41,54,2,44,106,20,-0,212916,0,044808,-0,536938
41,54,2,44,106,20,-0,021690,0,041321,0,020934
41,54,2,44,106,20,-0,015548,0,076638,0,013209
41,54,2,44,106,20,0,077765,-0,012208,0,153127
41,54,2,44,106,20,0,000707,0,000094,-0,002768
41,54,2,44,106,20,-0,007944,-0,016233,-0,007115
41,54,2,44,106,20,0,006274,-0,020746,0,006037
41,54,2,44,106,20,-0,009783,0,021679,0,109396
41,54,2,44,106,20,0,091072,0,020175,0,112960
41,54,2,44,106,20,-0,040823,-0,039305,-0,137038
41,54,2,44,106,20,-0,005079,0,002855,0,012163
41,54,2,44,106,20,0,005593,-0,008178,-0,006243
41,54,2,44,106,20,-0,039070,0,145053,0,082804
41,54,2,44,106,20,0,020306,0,070323,0,007764
41,54,2,44,106,20,-0,024729,0,016654,-0,038481
41,54,2,44,106,20,-0,130390,0,000141,-0,064352
41,54,2,44,106,20,-0,045139,0,010851,-0,021557
41,54,2,44,106,20,-0,097065,0,000433,-0,079876
41,54,2,44,106,20,0,052815,-0,043032,-0,023021
41,54,2,44,106,20,0,137935,-0,088190,0,050020
41,54,2,44,106,20,0,107397,-0,020345,-0,010481
41,54,2,44,106,20,0,003807,-0,009572,0,066351
41,54,2,44,106,20,-0,001937,0,003129,0,113552
41,54,2,44,106,20,-0,012551,0,029285,0,014822
41,54,2,44,106,20,0,035424,0,045578,-0,032604
41,54,2,44,106,20,0,023893,0,041457,-0,015869
41,54,2,44,106,20,-0,024356,0,007584,0,027127
41,54,2,44,106,20,-0,070819,0,085776,0,030525
41,54,2,44,106,20,-0,143501,0,241852,-0,020598
41,54,2,44,106,20,0,072273,-0,010142,0,004080
41,54,2,44,106,20,0,048951,-0,046525,0,140289
41,54,2,44,106,20,0,003015,-0,052318,-0,083377
41,54,2,44,106,20,0,015752,0,077558,-0,060274
41,54,2,44,106,20,-0,089621,-0,129000,0,136996
41,54,2,44,106,20,0,090420,0,012917,-0,025541
41,54,2,44,106,20,-0,059052,-0,006010,-0,018682
41,54,2,44,106,20,-0,151303,0,006781,-0,421206
41,54,2,44,106,20,0,002338,0,002049,0,010929
41,54,2,44,106,20,-0,155081,0,053561,-0,423028
41,54,2,44,106,20,0,022511,-0,189299,-0,120157
41,54,2,44,106,20,0,007272,0,000487,0,011223
41,54,2,44,106,20,-0,011988,-0,006586,-0,051220
41,54,2,44,106,20,-0,383165,0,033536,0,050077
41,54,2,44,106,20,-0,086515,0,051618,0,142204
41,54,2,44,106,20,-0,016507,0,088401,-0,331912
41,54,2,44,106,20,0,000763,0,088235,0,052819
41,54,2,44,106,20,-0,027404,-0,012973,-0,152911
41,54,2,44,106,20,-0,003657,-0,000857,-0,000143
41,54,2,44,106,20,0,056078,-0,030299,0,109591
41,54,2,44,106,20,-0,061348,-0,008196,0,000964
41,54,2,44,106,20,0,010911,-0,000546,0,032459
41,54,2,44,106,20,0,003567,-0,018000,-0,013613
41,54,2,44,106,20,0,087780,-0,057057,-0,015134
41,54,2,44,106,20,-0,035262,0,030122,-0,041400
41,54,2,44,106,20,-0,001089,-0,007682,0,005788
41,54,2,44,106,20,-0,085589,0,081044,0,146892
41,54,2,44,106,20,-0,363385,0,362479,-0,058576
41,54,2,44,106,20,0,012925,-0,011322,0,045517
41,54,2,44,106,20,-0,000920,0,106403,0,062116
41,54,2,44,106,20,-0,065312,-0,099575,-0,034262
41,54,2,44,106,20,-0,228220,-0,101245,0,065162
41,54,2,44,106,20,-0,130951,-0,083593,-0,118532
41,54,2,44,106,20,0,136152,-0,000965,0,133472
41,54,2,44,106,20,-0,022101,0,076310,-0,046842
41,54,2,44,106,20,-0,090455,-0,131291,0,127339
41,54,2,44,110,95,-0,275816,-0,178227,-0,020099
41,54,2,44,111,16,0,004587,-0,004758,-0,050608
41,54,2,44,111,16,0,037104,-0,025128,0,168835
41,54,2,44,111,23,0,003497,-0,000344,-0,009840
41,54,2,44,111,62,-0,003455,-0,145845,0,101070
41,54,2,44,111,93,-0,000914,0,002874,-0,001999
41,54,2,44,111,93,0,012818,-0,043863,0,076201
41,54,2,44,111,96,-0,025401,0,162979,0,012627
41,54,2,44,111,84,0,006655,0,021702,-0,077693
41,54,2,44,112,10,-0,087067,-0,022973,-0,099128
41,54,2,44,112,10,0,011501,0,019879,-0,031459
41,54,2,44,111,98,-0,009835,0,012815,-0,015994
41,54,2,44,111,70,-0,013863,-0,008450,-0,045946
41,54,2,44,111,89,0,097090,0,009385,-0,107865
41,54,2,44,111,89,-0,001867,-0,000041,0,000178
41,54,2,44,111,65,-0,048319,-0,009735,-0,000716
41,54,2,44,111,63,0,032840,-0,033141,0,282903
41,54,2,44,111,69,-0,052096,0,047210,-0,124920
41,54,2,44,111,69,0,779174,-0,132215,-0,190266
41,54,2,44,111,67,0,153211,-0,035378,0,557968
41,54,2,44,110,90,-0,041618,0,014923,-0,124811
41,54,2,44,111,21,0,006378,-0,003796,0,019892